{
  "resourceType": "Bundle",
  "id": "cb456f92-9a8f-4b6a-a77f-523f279aa12a",
  "meta": {
    "lastUpdated": "2021-01-13T00:21:10.210+00:00"
  },
  "type": "searchset",
  "total": 1,
  "link": [
    {
      "relation": "self",
      "url": "http://18.158.139.243:8080/hapi-fhir-jpaserver/fhir/Patient?_id=4cbf1989-4c93-4f2e-b0fb-2a5800acdf6e&_revinclude=*"
    }
  ],
  "entry": [
    {
      "fullUrl": "http://18.158.139.243:8080/hapi-fhir-jpaserver/fhir/Patient/4cbf1989-4c93-4f2e-b0fb-2a5800acdf6e",
      "resource": {
        "resourceType": "Patient",
        "id": "4cbf1989-4c93-4f2e-b0fb-2a5800acdf6e",
        "meta": {
          "versionId": "1",
          "lastUpdated": "2020-10-23T19:15:06.327+00:00",
          "source": "#8KOQG5WYeX9Ul0A7"
        },
        "text": {
          "status": "generated",
          "div": "<div xmlns=\"http://www.w3.org/1999/xhtml\"><table class=\"hapiPropertyTable\"><tbody><tr><td>Id:</td><td>4cbf1989-4c93-4f2e-b0fb-2a5800acdf6e</td></tr><tr><td>Identifier:</td><td><div>1003MF</div><div>124234</div></td></tr><tr><td>Active:</td><td>true</td></tr><tr><td>Name:</td><td> Rafael <b>LESSAI </b></td></tr><tr><td>Gender:</td><td>MALE</td></tr><tr><td>Birth Date:</td><td>06/12/1967</td></tr><tr><td>Deceased:</td><td>false</td></tr></tbody></table></div>"
        },
        "identifier": [
          {
            "id": "7da56eff-453f-4bb3-b535-9339a130e25b",
            "extension": [
              {
                "url": "http://fhir.openmrs.org/ext/patient/identifier#location",
                "valueReference": {
                  "reference": "Location/35290f48-c74e-3352-af10-9b487f2b5b77",
                  "type": "Location",
                  "display": "Maison de Naissance"
                }
              }
            ],
            "use": "official",
            "type": {
              "text": "iSantePlus ID"
            },
            "value": "1003MF"
          },
          {
            "id": "ff57ea88-5d1c-4230-ba99-59fb32939c05",
            "use": "usual",
            "type": {
              "text": "Code National"
            },
            "value": "124234"
          }
        ],
        "active": true,
        "name": [
          {
            "id": "68e5a74c-0c2f-4cb6-9757-765c7d927eb4",
            "family": "Lessai",
            "given": [
              "Rafael"
            ]
          }
        ],
        "gender": "male",
        "birthDate": "1967-12-06",
        "deceasedBoolean": false
      },
      "search": {
        "mode": "match"
      }
    },
    {
      "fullUrl": "http://18.158.139.243:8080/hapi-fhir-jpaserver/fhir/Observation/ed24bf73-88fb-4c8c-8ed8-638dab8a2850",
      "resource": {
        "resourceType": "Observation",
        "id": "ed24bf73-88fb-4c8c-8ed8-638dab8a2850",
        "meta": {
          "versionId": "1",
          "lastUpdated": "2020-10-23T19:17:28.192+00:00",
          "source": "#ZQnz001JutjhpIIP"
        },
        "text": {
          "status": "generated",
          "div": "<div xmlns=\"http://www.w3.org/1999/xhtml\"><table class=\"hapiPropertyTable\"><tbody><tr><td>Id:</td><td>ed24bf73-88fb-4c8c-8ed8-638dab8a2850</td></tr><tr><td>Status:</td><td>UNKNOWN</td></tr><tr><td>Code:</td><td> EXAMENS DEMANDÉS </td></tr><tr><td>Subject:</td><td><a href=\"http://localhost:8080/openmrs/ws/fhir2/R4/Patient/4cbf1989-4c93-4f2e-b0fb-2a5800acdf6e\">Rafael Lessai (iSantePlus ID: 1003MF)</a></td></tr><tr><td>Encounter:</td><td><a href=\"http://localhost:8080/openmrs/ws/fhir2/R4/Encounter/04f163d6-dcce-440d-93d0-3398693cb274\">Encounter/04f163d6-dcce-440d-93d0-3398693cb274</a></td></tr><tr><td>Effective:</td><td> 24 September 2020 04:42:32 </td></tr><tr><td>Issued:</td><td>24/09/2020 04:42:33 AM</td></tr><tr><td>Value:</td><td> Globules rouges </td></tr></tbody></table></div>"
        },
        "status": "unknown",
        "code": {
          "coding": [
            {
              "code": "1271AAAAAAAAAAAAAAAAAAAAAAAAAAAAAAAA",
              "display": "EXAMENS DEMANDÉS"
            },
            {
              "system": "urn:oid:2.16.840.1.113883.3.7201",
              "code": "1271",
              "display": "EXAMENS DEMANDÉS"
            }
          ]
        },
        "subject": {
          "reference": "Patient/4cbf1989-4c93-4f2e-b0fb-2a5800acdf6e",
          "type": "Patient",
          "display": "Rafael Lessai (iSantePlus ID: 1003MF)"
        },
        "encounter": {
          "reference": "Encounter/04f163d6-dcce-440d-93d0-3398693cb274",
          "type": "Encounter"
        },
        "effectiveDateTime": "2020-09-24T04:42:32+00:00",
        "issued": "2020-09-24T04:42:33.000+00:00",
        "valueCodeableConcept": {
          "coding": [
            {
              "code": "679AAAAAAAAAAAAAAAAAAAAAAAAAAAAAAAAA",
              "display": "Globules rouges"
            },
            {
              "system": "http://loinc.org",
              "code": "23859-2",
              "display": "Globules rouges"
            },
            {
              "system": "urn:oid:2.16.840.1.113883.3.7201",
              "code": "679",
              "display": "Globules rouges"
            }
          ]
        }
      },
      "search": {
        "mode": "include"
      }
    },
    {
      "fullUrl": "http://18.158.139.243:8080/hapi-fhir-jpaserver/fhir/Observation/8da9c665-73df-4b64-af3e-8a4600aba679",
      "resource": {
        "resourceType": "Observation",
        "id": "8da9c665-73df-4b64-af3e-8a4600aba679",
        "meta": {
          "versionId": "1",
          "lastUpdated": "2020-10-23T19:17:28.663+00:00",
          "source": "#e4QYYRO1jvVA1u3s"
        },
        "text": {
          "status": "generated",
          "div": "<div xmlns=\"http://www.w3.org/1999/xhtml\"><table class=\"hapiPropertyTable\"><tbody><tr><td>Id:</td><td>8da9c665-73df-4b64-af3e-8a4600aba679</td></tr><tr><td>Status:</td><td>UNKNOWN</td></tr><tr><td>Code:</td><td> EXAMENS DEMANDÉS </td></tr><tr><td>Subject:</td><td><a href=\"http://localhost:8080/openmrs/ws/fhir2/R4/Patient/4cbf1989-4c93-4f2e-b0fb-2a5800acdf6e\">Rafael Lessai (iSantePlus ID: 1003MF)</a></td></tr><tr><td>Encounter:</td><td><a href=\"http://localhost:8080/openmrs/ws/fhir2/R4/Encounter/04f163d6-dcce-440d-93d0-3398693cb274\">Encounter/04f163d6-dcce-440d-93d0-3398693cb274</a></td></tr><tr><td>Effective:</td><td> 24 September 2020 04:42:32 </td></tr><tr><td>Issued:</td><td>24/09/2020 04:42:33 AM</td></tr><tr><td>Value:</td><td> Plaquettes </td></tr></tbody></table></div>"
        },
        "status": "unknown",
        "code": {
          "coding": [
            {
              "code": "1271AAAAAAAAAAAAAAAAAAAAAAAAAAAAAAAA",
              "display": "EXAMENS DEMANDÉS"
            },
            {
              "system": "urn:oid:2.16.840.1.113883.3.7201",
              "code": "1271",
              "display": "EXAMENS DEMANDÉS"
            }
          ]
        },
        "subject": {
          "reference": "Patient/4cbf1989-4c93-4f2e-b0fb-2a5800acdf6e",
          "type": "Patient",
          "display": "Rafael Lessai (iSantePlus ID: 1003MF)"
        },
        "encounter": {
          "reference": "Encounter/04f163d6-dcce-440d-93d0-3398693cb274",
          "type": "Encounter"
        },
        "effectiveDateTime": "2020-09-24T04:42:32+00:00",
        "issued": "2020-09-24T04:42:33.000+00:00",
        "valueCodeableConcept": {
          "coding": [
            {
              "code": "729AAAAAAAAAAAAAAAAAAAAAAAAAAAAAAAAA",
              "display": "Plaquettes"
            },
            {
              "system": "http://loinc.org",
              "code": "26515-7",
              "display": "Plaquettes"
            },
            {
              "system": "urn:oid:2.16.840.1.113883.3.7201",
              "code": "729",
              "display": "Plaquettes"
            }
          ]
        }
      },
      "search": {
        "mode": "include"
      }
    },
    {
      "fullUrl": "http://18.158.139.243:8080/hapi-fhir-jpaserver/fhir/Observation/8b1aca4b-d754-4561-b1c3-e23dff919d7f",
      "resource": {
        "resourceType": "Observation",
        "id": "8b1aca4b-d754-4561-b1c3-e23dff919d7f",
        "meta": {
          "versionId": "1",
          "lastUpdated": "2020-10-23T19:17:29.543+00:00",
          "source": "#ehIA9qWaQzjEGJqI"
        },
        "text": {
          "status": "generated",
          "div": "<div xmlns=\"http://www.w3.org/1999/xhtml\"><table class=\"hapiPropertyTable\"><tbody><tr><td>Id:</td><td>8b1aca4b-d754-4561-b1c3-e23dff919d7f</td></tr><tr><td>Status:</td><td>UNKNOWN</td></tr><tr><td>Code:</td><td> EXAMENS DEMANDÉS </td></tr><tr><td>Subject:</td><td><a href=\"http://localhost:8080/openmrs/ws/fhir2/R4/Patient/4cbf1989-4c93-4f2e-b0fb-2a5800acdf6e\">Rafael Lessai (iSantePlus ID: 1003MF)</a></td></tr><tr><td>Encounter:</td><td><a href=\"http://localhost:8080/openmrs/ws/fhir2/R4/Encounter/04f163d6-dcce-440d-93d0-3398693cb274\">Encounter/04f163d6-dcce-440d-93d0-3398693cb274</a></td></tr><tr><td>Effective:</td><td> 24 September 2020 04:42:32 </td></tr><tr><td>Issued:</td><td>24/09/2020 04:42:33 AM</td></tr><tr><td>Value:</td><td> Numération des lymphocytes CD4 </td></tr></tbody></table></div>"
        },
        "status": "unknown",
        "code": {
          "coding": [
            {
              "code": "1271AAAAAAAAAAAAAAAAAAAAAAAAAAAAAAAA",
              "display": "EXAMENS DEMANDÉS"
            },
            {
              "system": "urn:oid:2.16.840.1.113883.3.7201",
              "code": "1271",
              "display": "EXAMENS DEMANDÉS"
            }
          ]
        },
        "subject": {
          "reference": "Patient/4cbf1989-4c93-4f2e-b0fb-2a5800acdf6e",
          "type": "Patient",
          "display": "Rafael Lessai (iSantePlus ID: 1003MF)"
        },
        "encounter": {
          "reference": "Encounter/04f163d6-dcce-440d-93d0-3398693cb274",
          "type": "Encounter"
        },
        "effectiveDateTime": "2020-09-24T04:42:32+00:00",
        "issued": "2020-09-24T04:42:33.000+00:00",
        "valueCodeableConcept": {
          "coding": [
            {
              "code": "5497AAAAAAAAAAAAAAAAAAAAAAAAAAAAAAAA",
              "display": "Numération des lymphocytes CD4"
            },
            {
              "system": "http://loinc.org",
              "code": "24467-3",
              "display": "Numération des lymphocytes CD4"
            },
            {
              "system": "urn:oid:2.16.840.1.113883.3.7201",
              "code": "5497",
              "display": "Numération des lymphocytes CD4"
            },
            {
              "system": "http://loinc.org",
              "code": "20605-2",
              "display": "Numération des lymphocytes CD4"
            }
          ]
        }
      },
      "search": {
        "mode": "include"
      }
    },
    {
      "fullUrl": "http://18.158.139.243:8080/hapi-fhir-jpaserver/fhir/Observation/dac833b9-0daa-4642-8527-917a6d41cb65",
      "resource": {
        "resourceType": "Observation",
        "id": "dac833b9-0daa-4642-8527-917a6d41cb65",
        "meta": {
          "versionId": "1",
          "lastUpdated": "2020-10-23T19:17:29.986+00:00",
          "source": "#7GxWap2AdnoK6T5s"
        },
        "text": {
          "status": "generated",
          "div": "<div xmlns=\"http://www.w3.org/1999/xhtml\"><table class=\"hapiPropertyTable\"><tbody><tr><td>Id:</td><td>dac833b9-0daa-4642-8527-917a6d41cb65</td></tr><tr><td>Status:</td><td>UNKNOWN</td></tr><tr><td>Code:</td><td> EXAMENS DEMANDÉS </td></tr><tr><td>Subject:</td><td><a href=\"http://localhost:8080/openmrs/ws/fhir2/R4/Patient/4cbf1989-4c93-4f2e-b0fb-2a5800acdf6e\">Rafael Lessai (iSantePlus ID: 1003MF)</a></td></tr><tr><td>Encounter:</td><td><a href=\"http://localhost:8080/openmrs/ws/fhir2/R4/Encounter/04f163d6-dcce-440d-93d0-3398693cb274\">Encounter/04f163d6-dcce-440d-93d0-3398693cb274</a></td></tr><tr><td>Effective:</td><td> 24 September 2020 04:42:32 </td></tr><tr><td>Issued:</td><td>24/09/2020 04:42:33 AM</td></tr><tr><td>Value:</td><td> Taux CD4 </td></tr></tbody></table></div>"
        },
        "status": "unknown",
        "code": {
          "coding": [
            {
              "code": "1271AAAAAAAAAAAAAAAAAAAAAAAAAAAAAAAA",
              "display": "EXAMENS DEMANDÉS"
            },
            {
              "system": "urn:oid:2.16.840.1.113883.3.7201",
              "code": "1271",
              "display": "EXAMENS DEMANDÉS"
            }
          ]
        },
        "subject": {
          "reference": "Patient/4cbf1989-4c93-4f2e-b0fb-2a5800acdf6e",
          "type": "Patient",
          "display": "Rafael Lessai (iSantePlus ID: 1003MF)"
        },
        "encounter": {
          "reference": "Encounter/04f163d6-dcce-440d-93d0-3398693cb274",
          "type": "Encounter"
        },
        "effectiveDateTime": "2020-09-24T04:42:32+00:00",
        "issued": "2020-09-24T04:42:33.000+00:00",
        "valueCodeableConcept": {
          "coding": [
            {
              "code": "730AAAAAAAAAAAAAAAAAAAAAAAAAAAAAAAAA",
              "display": "Taux CD4"
            },
            {
              "system": "http://loinc.org",
              "code": "20606-0",
              "display": "Taux CD4"
            },
            {
              "system": "urn:oid:2.16.840.1.113883.3.7201",
              "code": "730",
              "display": "Taux CD4"
            }
          ]
        }
      },
      "search": {
        "mode": "include"
      }
    },
    {
      "fullUrl": "http://18.158.139.243:8080/hapi-fhir-jpaserver/fhir/Encounter/04f163d6-dcce-440d-93d0-3398693cb274",
      "resource": {
        "resourceType": "Encounter",
        "id": "04f163d6-dcce-440d-93d0-3398693cb274",
        "meta": {
          "versionId": "1",
          "lastUpdated": "2020-10-23T19:15:26.027+00:00",
          "source": "#x3MpoRDF3wjgeW0b"
        },
        "text": {
          "status": "generated",
          "div": "<div xmlns=\"http://www.w3.org/1999/xhtml\"><table class=\"hapiPropertyTable\"><tbody><tr><td>Id:</td><td>04f163d6-dcce-440d-93d0-3398693cb274</td></tr><tr><td>Status:</td><td>UNKNOWN</td></tr><tr><td>Class:</td><td> (Details: http://terminology.hl7.org/CodeSystem/v3-ActCode ) </td></tr><tr><td>Type:</td><td> Analyses de Lab. </td></tr><tr><td>Subject:</td><td><a href=\"http://localhost:8080/openmrs/ws/fhir2/R4/Patient/4cbf1989-4c93-4f2e-b0fb-2a5800acdf6e\">Rafael Lessai (iSantePlus ID: 1003MF)</a></td></tr><tr><td>Participants:</td><td><table class=\"subPropertyTable\"><tbody><tr><th>-</th><th>Type</th><th>Period</th><th>Individual</th></tr><tr><td>1</td><td/><td/><td><a href=\"http://localhost:8080/openmrs/ws/fhir2/R4/Practitioner/e5a171a3-014b-3536-8b01-9415f4e06d3e\">Super User (Identifier: M5zQapPyTZI)</a></td></tr></tbody></table></td></tr><tr><td>Location:</td><td><table class=\"subPropertyTable\"><tbody><tr><th>-</th><th>Location</th><th>Status</th><th>Physical Type</th><th>Period</th></tr><tr><td>1</td><td><a href=\"http://localhost:8080/openmrs/ws/fhir2/R4/Location/bdbf4cf8-3599-3abc-a7e4-99d1e8ef7238\">HUEH</a></td><td/><td/><td/></tr></tbody></table></td></tr><tr><td>Part Of:</td><td><a href=\"http://localhost:8080/openmrs/ws/fhir2/R4/Encounter/f5739c19-c4de-420c-9d20-ed5ba02f07fb\">Encounter/f5739c19-c4de-420c-9d20-ed5ba02f07fb</a></td></tr></tbody></table></div>"
        },
        "status": "unknown",
        "class": {
          "system": "http://terminology.hl7.org/CodeSystem/v3-ActCode",
          "code": "AMB"
        },
        "period": {
          "start": "2019-05-17T00:00:00+00:00"
        },
        "type": [
          {
            "coding": [
              {
                "code": "f037e97b-471e-4898-a07c-b8e169e0ddc4",
                "display": "Analyses de Lab."
              }
            ]
          }
        ],
        "subject": {
          "reference": "Patient/4cbf1989-4c93-4f2e-b0fb-2a5800acdf6e",
          "type": "Patient",
          "display": "Rafael Lessai (iSantePlus ID: 1003MF)"
        },
        "participant": [
          {
            "individual": {
              "reference": "Practitioner/e5a171a3-014b-3536-8b01-9415f4e06d3e",
              "type": "Practitioner",
              "identifier": {
                "value": "M5zQapPyTZI"
              },
              "display": "Super User (Identifier: M5zQapPyTZI)"
            }
          }
        ],
        "location": [
          {
            "location": {
              "reference": "Location/bdbf4cf8-3599-3abc-a7e4-99d1e8ef7238",
              "type": "Location",
              "display": "HUEH"
            }
          }
        ],
        "partOf": {
          "reference": "Encounter/f5739c19-c4de-420c-9d20-ed5ba02f07fb",
          "type": "Encounter"
        }
      },
      "search": {
        "mode": "include"
      }
    },
    {
      "fullUrl": "http://18.158.139.243:8080/hapi-fhir-jpaserver/fhir/AllergyIntolerance/f86f87e2-2e83-451d-8e27-52eaae3cf1c7",
      "resource": {
        "resourceType": "AllergyIntolerance",
        "id": "f86f87e2-2e83-451d-8e27-52eaae3cf1c7",
        "meta": {
          "versionId": "1",
          "lastUpdated": "2020-10-23T19:19:01.577+00:00",
          "source": "#6PvUAqnCXZqekTQV"
        },
        "text": {
          "status": "generated",
          "div": "<div xmlns=\"http://www.w3.org/1999/xhtml\"><table class=\"hapiPropertyTable\"><tbody><tr><td>Id:</td><td>f86f87e2-2e83-451d-8e27-52eaae3cf1c7</td></tr><tr><td>Clinical Status:</td><td>Active</td></tr><tr><td>Verification Status:</td><td>Confirmed</td></tr><tr><td>Type:</td><td>ALLERGY</td></tr><tr><td>Category:</td><td> Enumeration[medication] </td></tr><tr><td>Criticality:</td><td>LOW</td></tr><tr><td>Code:</td><td> Aspirine </td></tr><tr><td>Patient:</td><td><a href=\"http://localhost:8080/openmrs/ws/fhir2/R4/Patient/4cbf1989-4c93-4f2e-b0fb-2a5800acdf6e\">Rafael Lessai (iSantePlus ID: 1003MF)</a></td></tr><tr><td>Recorded Date:</td><td>24/09/2020</td></tr><tr><td>Recorder:</td><td><a href=\"http://localhost:8080/openmrs/ws/fhir2/R4/Practitioner/5f523dc0-5ada-11e9-bb2b-06a4ca6129e3\">Super User</a></td></tr><tr><td>Note:</td><td><div/></td></tr><tr><td>Reaction:</td><td/></tr><tr><td>Substance:</td><td> Aspirine </td></tr><tr><td>Manifestation:</td><td><div> Fièvre </div><div> Démangeaisons </div></td></tr><tr><td>Severity:</td><td>MILD</td></tr></tbody></table></div>"
        },
        "clinicalStatus": {
          "coding": [
            {
              "system": "http://terminology.hl7.org/CodeSystem/allergyintolerance-clinical",
              "code": "active",
              "display": "Active"
            }
          ],
          "text": "Active"
        },
        "verificationStatus": {
          "coding": [
            {
              "system": "http://terminology.hl7.org/CodeSystem/allergyintolerance-verification",
              "code": "confirmed",
              "display": "Confirmed"
            }
          ],
          "text": "Confirmed"
        },
        "type": "allergy",
        "category": [
          "medication"
        ],
        "criticality": "low",
        "code": {
          "coding": [
            {
              "code": "71617AAAAAAAAAAAAAAAAAAAAAAAAAAAAAAA",
              "display": "Aspirine"
            },
            {
              "system": "urn:oid:2.16.840.1.113883.3.7201",
              "code": "71617",
              "display": "Aspirine"
            }
          ]
        },
        "patient": {
          "reference": "Patient/4cbf1989-4c93-4f2e-b0fb-2a5800acdf6e",
          "type": "Patient",
          "display": "Rafael Lessai (iSantePlus ID: 1003MF)"
        },
        "recordedDate": "2020-09-24T04:41:35+00:00",
        "recorder": {
          "reference": "Practitioner/5f523dc0-5ada-11e9-bb2b-06a4ca6129e3",
          "type": "Practitioner",
          "display": "Super User"
        },
        "reaction": [
          {
            "substance": {
              "coding": [
                {
                  "code": "71617AAAAAAAAAAAAAAAAAAAAAAAAAAAAAAA",
                  "display": "Aspirine"
                },
                {
                  "system": "urn:oid:2.16.840.1.113883.3.7201",
                  "code": "71617",
                  "display": "Aspirine"
                }
              ]
            },
            "manifestation": [
              {
                "coding": [
                  {
                    "code": "140238AAAAAAAAAAAAAAAAAAAAAAAAAAAAAA",
                    "display": "Fièvre"
                  },
                  {
                    "system": "urn:oid:2.16.840.1.113883.3.7201",
                    "code": "140238",
                    "display": "Fièvre"
                  }
                ]
              },
              {
                "coding": [
                  {
                    "code": "136455AAAAAAAAAAAAAAAAAAAAAAAAAAAAAA",
                    "display": "Démangeaisons"
                  },
                  {
                    "system": "urn:oid:2.16.840.1.113883.3.7201",
                    "code": "136455",
                    "display": "Démangeaisons"
                  }
                ]
              }
            ],
            "severity": "mild"
          }
        ]
      },
      "search": {
        "mode": "include"
      }
    },
    {
      "fullUrl": "http://18.158.139.243:8080/hapi-fhir-jpaserver/fhir/AllergyIntolerance/be825e00-85e0-4200-8598-2a44f17b6a21",
      "resource": {
        "resourceType": "AllergyIntolerance",
        "id": "be825e00-85e0-4200-8598-2a44f17b6a21",
        "meta": {
          "versionId": "1",
          "lastUpdated": "2020-10-23T19:19:02.088+00:00",
          "source": "#lcoYv8yaA2ggBSDS"
        },
        "text": {
          "status": "generated",
          "div": "<div xmlns=\"http://www.w3.org/1999/xhtml\"><table class=\"hapiPropertyTable\"><tbody><tr><td>Id:</td><td>be825e00-85e0-4200-8598-2a44f17b6a21</td></tr><tr><td>Clinical Status:</td><td>Active</td></tr><tr><td>Verification Status:</td><td>Confirmed</td></tr><tr><td>Type:</td><td>ALLERGY</td></tr><tr><td>Category:</td><td> Enumeration[food] </td></tr><tr><td>Criticality:</td><td>LOW</td></tr><tr><td>Code:</td><td> Poisson </td></tr><tr><td>Patient:</td><td><a href=\"http://localhost:8080/openmrs/ws/fhir2/R4/Patient/4cbf1989-4c93-4f2e-b0fb-2a5800acdf6e\">Rafael Lessai (iSantePlus ID: 1003MF)</a></td></tr><tr><td>Recorded Date:</td><td>24/09/2020</td></tr><tr><td>Recorder:</td><td><a href=\"http://localhost:8080/openmrs/ws/fhir2/R4/Practitioner/5f523dc0-5ada-11e9-bb2b-06a4ca6129e3\">Super User</a></td></tr><tr><td>Note:</td><td><div/></td></tr><tr><td>Reaction:</td><td/></tr><tr><td>Substance:</td><td> Poisson </td></tr><tr><td>Manifestation:</td><td><div> DIARRHÉE </div></td></tr><tr><td>Severity:</td><td>MILD</td></tr></tbody></table></div>"
        },
        "clinicalStatus": {
          "coding": [
            {
              "system": "http://terminology.hl7.org/CodeSystem/allergyintolerance-clinical",
              "code": "active",
              "display": "Active"
            }
          ],
          "text": "Active"
        },
        "verificationStatus": {
          "coding": [
            {
              "system": "http://terminology.hl7.org/CodeSystem/allergyintolerance-verification",
              "code": "confirmed",
              "display": "Confirmed"
            }
          ],
          "text": "Confirmed"
        },
        "type": "allergy",
        "category": [
          "food"
        ],
        "criticality": "low",
        "code": {
          "coding": [
            {
              "code": "162546AAAAAAAAAAAAAAAAAAAAAAAAAAAAAA",
              "display": "Poisson"
            },
            {
              "system": "urn:oid:2.16.840.1.113883.3.7201",
              "code": "162546",
              "display": "Poisson"
            }
          ]
        },
        "patient": {
          "reference": "Patient/4cbf1989-4c93-4f2e-b0fb-2a5800acdf6e",
          "type": "Patient",
          "display": "Rafael Lessai (iSantePlus ID: 1003MF)"
        },
        "recordedDate": "2020-09-24T04:41:50+00:00",
        "recorder": {
          "reference": "Practitioner/5f523dc0-5ada-11e9-bb2b-06a4ca6129e3",
          "type": "Practitioner",
          "display": "Super User"
        },
        "reaction": [
          {
            "substance": {
              "coding": [
                {
                  "code": "162546AAAAAAAAAAAAAAAAAAAAAAAAAAAAAA",
                  "display": "Poisson"
                },
                {
                  "system": "urn:oid:2.16.840.1.113883.3.7201",
                  "code": "162546",
                  "display": "Poisson"
                }
              ]
            },
            "manifestation": [
              {
                "coding": [
                  {
                    "code": "142412AAAAAAAAAAAAAAAAAAAAAAAAAAAAAA",
                    "display": "DIARRHÉE"
                  },
                  {
                    "system": "urn:oid:2.16.840.1.113883.3.7201",
                    "code": "142412",
                    "display": "DIARRHÉE"
                  }
                ]
              }
            ],
            "severity": "mild"
          }
        ]
      },
      "search": {
        "mode": "include"
      }
    }
  ],
  "next": false
}